# Wavenumber	Transmittence
2848.00	0.000000
2868.00	0.000000
2888.00	0.000000
2863.00	0.000000
2838.00	0.003820
2813.00	0.101540
2878.00	0.000000
2898.00	0.000000
2808.00	0.148380
2843.00	0.000980
2803.00	0.195120
2853.00	0.000000
2893.00	0.000000
2823.00	0.020160
2883.00	0.000000
2908.00	0.000000
2858.00	0.000000
2913.00	0.000000
2828.00	0.009860
2833.00	0.006780
2873.00	0.000000
2918.00	0.000000
2818.00	0.055400
2903.00	0.000000
