# Wavenumber Transmittence
1038.00 0.575360
933.00 0.378700
983.00 0.013940
993.00 0.009320
943.00 0.503620
998.00 0.068820
1018.00 0.512160
948.00 0.519780
1023.00 0.567580
968.00 0.222560
923.00 0.205800
928.00 0.292200
953.00 0.488880
918.00 0.099720
1028.00 0.577260
963.00 0.312000
958.00 0.401440
978.00 0.050020
1013.00 0.442080
1003.00 0.175940
938.00 0.454160
973.00 0.133100
1008.00 0.306100
988.00 0.005060
1033.00 0.577640
