# Wavenumber	Transmittence
1048.00	0.531900
978.00	0.050020
1008.00	0.306100
1058.00	0.587800
1028.00	0.577260
1013.00	0.442080
983.00	0.013940
968.00	0.222560
1063.00	0.618180
988.00	0.005060
973.00	0.133100
1043.00	0.556240
1038.00	0.575360
1018.00	0.512160
993.00	0.009320
1033.00	0.577640
998.00	0.068820
958.00	0.401440
1003.00	0.175940
1053.00	0.556440
963.00	0.312000
1023.00	0.567580
