# Wavenumber Transmittence
1003.00 0.175940
1033.00 0.577640
1083.00 0.672640
1023.00 0.567580
1043.00 0.556240
988.00 0.005060
1058.00 0.587800
1093.00 0.716120
1008.00 0.306100
1038.00 0.575360
978.00 0.050020
998.00 0.068820
1068.00 0.630240
1088.00 0.716240
1073.00 0.636020
1078.00 0.648980
1053.00 0.556440
1048.00 0.531900
1063.00 0.618180
993.00 0.009320
983.00 0.013940
1098.00 0.662220
1013.00 0.442080
1028.00 0.577260
1018.00 0.512160
