# Wavenumber Transmittence
2728.00 0.597800
2743.00 0.630200
2773.00 0.506680
2803.00 0.195120
2818.00 0.055400
2748.00 0.627080
2758.00 0.605920
2753.00 0.619800
2828.00 0.009860
2848.00 0.000000
2838.00 0.003820
2793.00 0.281260
2788.00 0.336880
2823.00 0.020160
2733.00 0.620220
2833.00 0.006780
2778.00 0.452380
2768.00 0.548040
2798.00 0.241540
2843.00 0.000980
2813.00 0.101540
2723.00 0.579580
2808.00 0.148380
2738.00 0.632040
2763.00 0.584880
2783.00 0.394620
