# Wavenumber	Transmittence
2758.00	0.605920
2798.00	0.241540
2763.00	0.584880
2813.00	0.101540
2808.00	0.148380
2788.00	0.336880
2743.00	0.630200
2823.00	0.020160
2768.00	0.548040
2838.00	0.003820
2803.00	0.195120
2783.00	0.394620
2738.00	0.632040
2828.00	0.009860
2818.00	0.055400
2753.00	0.619800
2853.00	0.000000
2793.00	0.281260
2858.00	0.000000
2833.00	0.006780
2748.00	0.627080
2848.00	0.000000
2778.00	0.452380
2773.00	0.506680
2843.00	0.000980
