# Wavenumber Transmittence
3043.00 0.173000
3103.00 0.700580
3113.00 0.733960
3083.00 0.464320
3108.00 0.719040
3063.00 0.019160
3053.00 0.069360
3058.00 0.043120
3098.00 0.682720
3138.00 0.776260
3133.00 0.770080
3123.00 0.755640
3088.00 0.523160
3078.00 0.405460
3048.00 0.116000
3118.00 0.746340
3128.00 0.763820
3038.00 0.230000
3073.00 0.099560
3068.00 0.013240
3093.00 0.627860
3148.00 0.785800
3143.00 0.781380
