# Wavenumber Transmittence
1023.00 0.567580
988.00 0.005060
993.00 0.009320
983.00 0.013940
1048.00 0.531900
953.00 0.488880
938.00 0.454160
958.00 0.401440
1043.00 0.556240
1033.00 0.577640
1028.00 0.577260
1013.00 0.442080
1008.00 0.306100
978.00 0.050020
998.00 0.068820
968.00 0.222560
1018.00 0.512160
1003.00 0.175940
1038.00 0.575360
943.00 0.503620
948.00 0.519780
963.00 0.312000
973.00 0.133100
