# Wavenumber Transmittence
998.00 0.068820
943.00 0.503620
993.00 0.009320
913.00 0.008100
918.00 0.099720
948.00 0.519780
968.00 0.222560
983.00 0.013940
988.00 0.005060
963.00 0.312000
928.00 0.292200
978.00 0.050020
933.00 0.378700
938.00 0.454160
923.00 0.205800
908.00 0.000000
1003.00 0.175940
973.00 0.133100
953.00 0.488880
958.00 0.401440
