# Wavenumber,Transmittence
2003.75,1.001000
1999.06,1.001000
1928.75,0.969800
1989.69,1.000200
1966.25,0.991200
2027.19,1.001000
1956.88,0.987200
1975.63,0.994600
1980.31,0.996600
1924.06,0.970000
2013.13,1.001000
1933.44,0.970800
2017.81,1.001000
2036.56,1.001000
1952.19,0.984000
2022.50,1.001000
1970.94,0.992800
1985.00,0.998400
1938.13,0.973800
2008.44,1.001000
2031.88,1.001000
1961.56,0.988800
2041.25,1.001000
1994.38,1.001000
1942.81,0.976800
1947.50,0.980400
