# Wavenumber Transmittence
2960.00 0.283840
2955.31 0.301820
2964.69 0.272920
3020.94 0.633360
2936.56 0.362940
2922.50 0.368180
2941.25 0.359600
2978.75 0.246240
2974.06 0.244240
3035.00 0.841600
3006.88 0.410360
3016.25 0.571840
2950.63 0.329060
2931.88 0.368600
3002.19 0.353180
2988.13 0.241720
2927.19 0.370000
2992.81 0.270540
3025.63 0.724220
2969.38 0.250020
2983.44 0.246100
3030.31 0.787900
3011.56 0.484880
2945.94 0.347700
2997.50 0.315940
