# Wavenumber	Transmittence
2870.94	0.464620
2941.25	0.359600
2927.19	0.370000
2931.88	0.368600
2899.06	0.321880
2913.13	0.353220
2945.94	0.347700
2885.00	0.370500
2903.75	0.298280
2950.63	0.329060
2875.63	0.428260
2894.38	0.336200
2936.56	0.362940
2955.31	0.301820
2908.44	0.323160
2960.00	0.283840
2917.81	0.361480
2866.25	0.513540
2880.31	0.393660
2922.50	0.368180
2889.69	0.347080
