# Wavenumber	Transmittence
1572.50	0.993200
1591.25	0.988800
1628.75	0.989400
1605.31	0.988800
1661.56	0.988600
1577.19	0.989600
1656.88	0.985400
1595.94	0.990600
1619.38	0.986200
1642.81	0.988000
1633.44	0.988000
1652.19	0.984200
1610.00	0.989400
1586.56	0.994800
1647.50	0.987200
1624.06	0.987600
1638.13	0.988000
1666.25	0.989000
1581.88	0.992600
1614.69	0.988000
1670.94	0.988000
1567.81	0.991400
1600.63	0.990200
