# Wavenumber Transmittence
1642.81 0.988000
1558.44 0.990200
1595.94 0.990600
1591.25 0.988800
1619.38 0.986200
1581.88 0.992600
1647.50 0.987200
1549.06 0.993200
1572.50 0.993200
1624.06 0.987600
1633.44 0.988000
1628.75 0.989400
1586.56 0.994800
1600.63 0.990200
1605.31 0.988800
1567.81 0.991400
1638.13 0.988000
1553.75 0.990400
1610.00 0.989400
1563.13 0.993200
1614.69 0.988000
1577.19 0.989600
