# Wavenumber	Transmittence
2702.19	0.972100
2777.19	0.914220
2763.13	0.922500
2688.13	0.977280
2767.81	0.919500
2706.88	0.969560
2720.94	0.957820
2683.44	0.978060
2711.56	0.965360
2692.81	0.975820
2753.75	0.929560
2725.63	0.954120
2739.69	0.937480
2781.88	0.908820
2749.06	0.932800
2697.50	0.974280
2678.75	0.978960
2730.31	0.950520
2716.25	0.960720
2744.38	0.934500
2735.00	0.943300
2758.44	0.925860
2772.50	0.916600
