# Wavenumber	Transmittence
3649.06	0.726180
3639.69	0.791760
3756.88	1.001000
3663.13	0.705100
3677.19	0.756400
3691.25	0.892940
3672.50	0.750700
3710.00	0.988260
3728.75	1.000340
3705.31	0.976000
3752.19	1.001000
3700.63	0.961140
3714.69	0.991960
3686.56	0.824740
3742.81	1.000860
3658.44	0.713460
3644.38	0.746200
3724.06	1.000460
3733.44	1.000000
3695.94	0.937620
3667.81	0.745420
3719.38	0.998960
3761.56	1.000540
3681.88	0.776900
3653.75	0.724980
3738.13	1.000000
3747.50	1.001000
