# Wavenumber	Transmittence
3395.94	1.001000
3419.38	1.003640
3349.06	1.006480
3367.81	1.005000
3414.69	1.002000
3391.25	1.001900
3452.19	1.000040
3363.13	1.005000
3405.31	1.001000
3353.75	1.005000
3386.56	1.002540
3447.50	1.000940
3381.88	1.003860
3400.63	1.001000
3410.00	1.001420
3358.44	1.005000
3372.50	1.003800
3438.13	1.001580
3377.19	1.004780
3442.81	1.001000
3433.44	1.002760
3456.88	0.999900
3424.06	1.004000
3428.75	1.004000
