# Wavenumber Transmittence
3006.88 0.410360
3020.94 0.633360
2936.56 0.362940
2950.63 0.329060
3011.56 0.484880
2964.69 0.272920
2992.81 0.270540
2960.00 0.283840
2941.25 0.359600
3030.31 0.787900
2983.44 0.246100
2969.38 0.250020
2978.75 0.246240
2922.50 0.368180
2974.06 0.244240
2988.13 0.241720
3002.19 0.353180
2945.94 0.347700
2955.31 0.301820
2927.19 0.370000
3016.25 0.571840
2997.50 0.315940
2931.88 0.368600
3025.63 0.724220
2917.81 0.361480
