# Wavenumber	Transmittence
1694.38	0.986400
1666.25	0.989000
1656.88	0.985400
1642.81	0.988000
1699.06	0.986000
1689.69	0.988000
1727.19	0.985000
1624.06	0.987600
1680.31	0.984400
1610.00	0.989400
1619.38	0.986200
1713.13	0.982800
1628.75	0.989400
1717.81	0.982400
1647.50	0.987200
1661.56	0.988600
1685.00	0.985600
1633.44	0.988000
1605.31	0.988800
1675.63	0.986200
1638.13	0.988000
1703.75	0.986000
1708.44	0.985200
1722.50	0.984400
1670.94	0.988000
1614.69	0.988000
1652.19	0.984200
