# Wavenumber	Transmittence
3564.69	0.991080
3625.63	0.898060
3541.25	1.000000
3588.13	0.986180
3555.31	0.995960
3574.06	0.990840
3592.81	0.984180
3616.25	0.941820
3583.44	0.988080
3606.88	0.968020
3578.75	0.989500
3569.38	0.990360
3620.94	0.919380
3527.19	1.002000
3531.88	1.001180
3560.00	0.993520
3536.56	1.000060
3630.31	0.864940
3550.63	0.998460
3597.50	0.980200
3602.19	0.975200
3611.56	0.956740
3545.94	1.000000
