# Wavenumber Transmittence
2341.25 0.994240
2275.63 0.990120
2336.56 0.997200
2345.94 0.994340
2331.88 0.999720
2285.00 0.993120
2313.13 1.001000
2322.50 1.001000
2252.19 0.994620
2280.31 0.991780
2266.25 0.989840
2317.81 1.001000
2242.81 0.997220
2294.38 0.997000
2256.88 0.992660
2327.19 1.000660
2308.44 1.001000
2261.56 0.991000
2299.06 0.999540
2247.50 0.995840
2270.94 0.989000
2350.63 0.997660
2289.69 0.994840
2303.75 1.000920
