# Wavenumber	Transmittence
2392.81	0.997000
2411.56	0.993400
2378.75	0.999760
2350.63	0.997660
2369.38	1.001000
2416.25	0.992000
2383.44	0.997700
2355.31	1.000340
2435.00	0.994000
2388.13	0.997000
2341.25	0.994240
2425.63	0.992200
2397.50	0.997000
2331.88	0.999720
2360.00	1.001000
2420.94	0.992000
2374.06	1.000300
2336.56	0.997200
2402.19	0.995600
2364.69	1.001000
2406.88	0.994900
2430.31	0.994000
2345.94	0.994340
