# Wavenumber Transmittence
2613.13 0.991940
2622.50 0.990200
2608.44 0.994080
2547.50 1.001000
2580.31 1.000000
2585.00 0.999880
2603.75 0.997080
2636.56 0.986800
2599.06 0.998000
2566.25 1.000580
2617.81 0.991040
2575.63 1.000000
2594.38 0.998000
2589.69 0.998080
2524.06 1.001000
2552.19 1.001000
2533.44 1.001000
2556.88 1.001000
2631.88 0.988000
2542.81 1.001000
2570.94 1.000000
2641.25 0.985960
2561.56 1.001000
2627.19 0.988420
2538.13 1.001000
2528.75 1.001000
