# Wavenumber	Transmittence
2852.19	0.669460
2899.06	0.321880
2936.56	0.362940
2842.81	0.759640
2861.56	0.562760
2903.75	0.298280
2875.63	0.428260
2913.13	0.353220
2880.31	0.393660
2922.50	0.368180
2894.38	0.336200
2838.13	0.790080
2917.81	0.361480
2833.44	0.813300
2856.88	0.631340
2927.19	0.370000
2931.88	0.368600
2908.44	0.323160
2870.94	0.464620
2885.00	0.370500
2889.69	0.347080
2866.25	0.513540
2847.50	0.702700
