# Wavenumber	Transmittence
2913.13	0.353220
2936.56	0.362940
2908.44	0.323160
2941.25	0.359600
2945.94	0.347700
2931.88	0.368600
2992.81	0.270540
2974.06	0.244240
2899.06	0.321880
2894.38	0.336200
2983.44	0.246100
2964.69	0.272920
2917.81	0.361480
2922.50	0.368180
2960.00	0.283840
2950.63	0.329060
2885.00	0.370500
2903.75	0.298280
2988.13	0.241720
2997.50	0.315940
2969.38	0.250020
2889.69	0.347080
2927.19	0.370000
2880.31	0.393660
2978.75	0.246240
2955.31	0.301820
