# Wavenumber,Transmittence
1924.06,0.970000
1999.06,1.001000
1980.31,0.996600
1956.88,0.987200
1905.31,0.979600
1985.00,0.998400
1947.50,0.980400
1942.81,0.976800
1961.56,0.988800
1910.00,0.977200
1966.25,0.991200
1928.75,0.969800
1994.38,1.001000
2003.75,1.001000
1938.13,0.973800
1933.44,0.970800
1919.38,0.972400
1952.19,0.984000
1914.69,0.974400
1989.69,1.000200
1970.94,0.992800
1975.63,0.994600
