# Wavenumber,Transmittence
3700.63,0.961140
3635.00,0.836280
3653.75,0.724980
3649.06,0.726180
3677.19,0.756400
3639.69,0.791760
3672.50,0.750700
3658.44,0.713460
3625.63,0.898060
3630.31,0.864940
3616.25,0.941820
3681.88,0.776900
3686.56,0.824740
3620.94,0.919380
3695.94,0.937620
3667.81,0.745420
3611.56,0.956740
3644.38,0.746200
3691.25,0.892940
3663.13,0.705100
