# Wavenumber	Transmittence
2645.94	0.985060
2636.56	0.986800
2641.25	0.985960
2585.00	0.999880
2617.81	0.991040
2669.38	0.981220
2570.94	1.000000
2580.31	1.000000
2631.88	0.988000
2603.75	0.997080
2594.38	0.998000
2589.69	0.998080
2608.44	0.994080
2660.00	0.982440
2655.31	0.984000
2622.50	0.990200
2575.63	1.000000
2599.06	0.998000
2674.06	0.979840
2678.75	0.978960
2613.13	0.991940
2627.19	0.988420
2664.69	0.982000
2650.63	0.984220
