# Wavenumber Transmittence
494.38 0.972000
545.94 0.970000
541.25 0.970000
475.63 0.969400
531.88 0.969000
564.69 0.981200
499.06 0.970400
513.13 0.969400
470.94 0.968800
550.63 0.972000
536.56 0.970000
508.44 0.970000
489.69 0.972000
527.19 0.969000
555.31 0.974400
480.31 0.970000
466.25 0.968000
560.00 0.978000
461.56 0.966000
517.81 0.969000
485.00 0.972000
522.50 0.969000
503.75 0.970000
574.06 0.985600
569.38 0.983200
