# Wavenumber	Transmittence
2130.31	0.984000
2153.75	0.992440
2177.19	0.994000
2224.06	1.000000
2219.38	1.000000
2135.00	0.984220
2200.63	0.996200
2139.69	0.986740
2144.38	0.989400
2195.94	0.994820
2172.50	0.994000
2205.31	0.997900
2149.06	0.991420
2191.25	0.994000
2210.00	0.999900
2158.44	0.994000
2120.94	0.984940
2167.81	0.994000
2181.88	0.994000
2125.63	0.984040
2186.56	0.994000
2214.69	1.000000
2163.13	0.994000
