# Wavenumber	Transmittence
705.31	1.013000
752.19	1.006200
775.63	0.998000
738.13	1.007400
672.50	1.002000
766.25	1.004000
719.38	1.015000
756.88	1.006200
742.81	1.007000
700.63	1.012200
780.31	0.993800
770.94	1.000800
714.69	1.013400
677.19	0.999400
747.50	1.007400
686.56	1.008000
761.56	1.005000
695.94	1.009600
691.25	1.008000
728.75	1.012800
733.44	1.009000
710.00	1.013200
724.06	1.020200
681.88	1.007200
