# Wavenumber,Transmittence
2355.31,1.000340
2341.25,0.994240
2360.00,1.001000
2388.13,0.997000
2397.50,0.997000
2378.75,0.999760
2369.38,1.001000
2411.56,0.993400
2345.94,0.994340
2331.88,0.999720
2350.63,0.997660
2416.25,0.992000
2322.50,1.001000
2392.81,0.997000
2374.06,1.000300
2327.19,1.000660
2420.94,0.992000
2406.88,0.994900
2383.44,0.997700
2317.81,1.001000
2313.13,1.001000
2364.69,1.001000
2402.19,0.995600
2336.56,0.997200
