# Wavenumber	Transmittence
1699.06	0.986000
1628.75	0.989400
1694.38	0.986400
1619.38	0.986200
1661.56	0.988600
1614.69	0.988000
1685.00	0.985600
1610.00	0.989400
1703.75	0.986000
1647.50	0.987200
1670.94	0.988000
1633.44	0.988000
1642.81	0.988000
1689.69	0.988000
1675.63	0.986200
1708.44	0.985200
1652.19	0.984200
1680.31	0.984400
1656.88	0.985400
1666.25	0.989000
1638.13	0.988000
1624.06	0.987600
