# Wavenumber Transmittence
3410.00 1.001420
3485.00 1.001000
3447.50 1.000940
3475.63 1.000380
3442.81 1.001000
3480.31 1.001000
3400.63 1.001000
3428.75 1.004000
3414.69 1.002000
3513.13 1.004000
3470.94 1.000000
3503.75 1.002000
3452.19 1.000040
3508.44 1.002360
3405.31 1.001000
3499.06 1.002000
3494.38 1.001780
3395.94 1.001000
3461.56 0.998100
3456.88 0.999900
3438.13 1.001580
3489.69 1.001000
3424.06 1.004000
3419.38 1.003640
3466.25 0.998800
3433.44 1.002760
