# Wavenumber Transmittence
2964.69 0.272920
2955.31 0.301820
2941.25 0.359600
2945.94 0.347700
2931.88 0.368600
2969.38 0.250020
2922.50 0.368180
2894.38 0.336200
2936.56 0.362940
2913.13 0.353220
2974.06 0.244240
2917.81 0.361480
2899.06 0.321880
2908.44 0.323160
2978.75 0.246240
2889.69 0.347080
2950.63 0.329060
2885.00 0.370500
2960.00 0.283840
2983.44 0.246100
2927.19 0.370000
2903.75 0.298280
