# Wavenumber Transmittence
1633.44 0.988000
1694.38 0.986400
1717.81 0.982400
1638.13 0.988000
1689.69 0.988000
1708.44 0.985200
1680.31 0.984400
1642.81 0.988000
1666.25 0.989000
1699.06 0.986000
1670.94 0.988000
1703.75 0.986000
1656.88 0.985400
1675.63 0.986200
1685.00 0.985600
1647.50 0.987200
1661.56 0.988600
1722.50 0.984400
1652.19 0.984200
1713.13 0.982800
