# Wavenumber Transmittence
531.88 0.969000
527.19 0.969000
480.31 0.970000
508.44 0.970000
536.56 0.970000
485.00 0.972000
522.50 0.969000
466.25 0.968000
541.25 0.970000
517.81 0.969000
513.13 0.969400
499.06 0.970400
503.75 0.970000
489.69 0.972000
475.63 0.969400
461.56 0.966000
470.94 0.968800
550.63 0.972000
494.38 0.972000
545.94 0.970000
