# Wavenumber	Transmittence
2880.31	0.393660
2833.44	0.813300
2819.38	0.854560
2824.06	0.845640
2903.75	0.298280
2894.38	0.336200
2847.50	0.702700
2870.94	0.464620
2889.69	0.347080
2875.63	0.428260
2852.19	0.669460
2885.00	0.370500
2828.75	0.831620
2861.56	0.562760
2838.13	0.790080
2842.81	0.759640
2814.69	0.864300
2856.88	0.631340
2899.06	0.321880
2866.25	0.513540
