# Wavenumber,Transmittence
2969.38,0.250020
2936.56,0.362940
3020.94,0.633360
2950.63,0.329060
2992.81,0.270540
2983.44,0.246100
2978.75,0.246240
3011.56,0.484880
2988.13,0.241720
2941.25,0.359600
2964.69,0.272920
3016.25,0.571840
2931.88,0.368600
2997.50,0.315940
3002.19,0.353180
2955.31,0.301820
2974.06,0.244240
3006.88,0.410360
2927.19,0.370000
2945.94,0.347700
2960.00,0.283840
