# Wavenumber Transmittence
2603.75 0.997080
2589.69 0.998080
2566.25 1.000580
2636.56 0.986800
2627.19 0.988420
2599.06 0.998000
2631.88 0.988000
2664.69 0.982000
2645.94 0.985060
2580.31 1.000000
2650.63 0.984220
2641.25 0.985960
2575.63 1.000000
2594.38 0.998000
2570.94 1.000000
2655.31 0.984000
2617.81 0.991040
2660.00 0.982440
2585.00 0.999880
2622.50 0.990200
2613.13 0.991940
2608.44 0.994080
