# Wavenumber Transmittence
2378.75 0.999760
2444.38 0.995000
2402.19 0.995600
2397.50 0.997000
2416.25 0.992000
2449.06 0.995000
2392.81 0.997000
2439.69 0.994300
2472.50 0.997860
2420.94 0.992000
2477.19 0.998000
2453.75 0.995180
2463.13 0.997000
2388.13 0.997000
2435.00 0.994000
2411.56 0.993400
2425.63 0.992200
2406.88 0.994900
2430.31 0.994000
2383.44 0.997700
2481.88 0.998000
2467.81 0.997000
2458.44 0.996980
