# Wavenumber,Transmittence
2519.38,1.001000
2477.19,0.998000
2449.06,0.995000
2505.31,1.000660
2495.94,1.000000
2444.38,0.995000
2486.56,0.998000
2416.25,0.992000
2439.69,0.994300
2510.00,1.001000
2435.00,0.994000
2514.69,1.001000
2430.31,0.994000
2467.81,0.997000
2500.63,1.000000
2491.25,0.998920
2472.50,0.997860
2463.13,0.997000
2481.88,0.998000
2425.63,0.992200
2453.75,0.995180
2458.44,0.996980
2420.94,0.992000
