# Wavenumber Transmittence
2125.63 0.984040
2088.13 0.994780
2097.50 0.991780
2102.19 0.990040
2031.88 1.001000
2083.44 0.996840
2111.56 0.988000
2078.75 0.997740
2120.94 0.984940
2041.25 1.001000
2060.00 1.000740
2116.25 0.986060
2106.88 0.988020
2064.69 1.000000
2055.31 1.001000
2069.38 1.000000
2036.56 1.001000
2050.63 1.001000
2074.06 0.998280
2130.31 0.984000
2092.81 0.993840
2045.94 1.001400
