# Wavenumber	Transmittence
2116.25	0.986060
2111.56	0.988000
2191.25	0.994000
2153.75	0.992440
2144.38	0.989400
2200.63	0.996200
2106.88	0.988020
2163.13	0.994000
2195.94	0.994820
2158.44	0.994000
2172.50	0.994000
2139.69	0.986740
2186.56	0.994000
2167.81	0.994000
2181.88	0.994000
2135.00	0.984220
2149.06	0.991420
2120.94	0.984940
2177.19	0.994000
2130.31	0.984000
2125.63	0.984040
