# Wavenumber Transmittence
3086.56 0.995000
3091.25 0.995000
3025.63 0.724220
3049.06 0.960120
3072.50 0.991060
3095.94 0.996560
3020.94 0.633360
2997.50 0.315940
3006.88 0.410360
3081.88 0.994580
3044.38 0.937260
3063.13 0.985880
3011.56 0.484880
3039.69 0.901400
3016.25 0.571840
3035.00 0.841600
3077.19 0.992760
3002.19 0.353180
3053.75 0.973600
3030.31 0.787900
3067.81 0.988880
3058.44 0.982220
