# Wavenumber,Transmittence
2552.19,1.001000
2472.50,0.997860
2556.88,1.001000
2561.56,1.001000
2491.25,0.998920
2505.31,1.000660
2547.50,1.001000
2510.00,1.001000
2538.13,1.001000
2519.38,1.001000
2566.25,1.000580
2528.75,1.001000
2486.56,0.998000
2542.81,1.001000
2481.88,0.998000
2524.06,1.001000
2533.44,1.001000
2500.63,1.000000
2514.69,1.001000
2477.19,0.998000
2495.94,1.000000
