# Wavenumber Transmittence
486.00 0.856180
501.00 0.872600
551.00 0.867080
456.00 0.795540
491.00 0.867160
496.00 0.871440
541.00 0.863700
471.00 0.819700
536.00 0.862060
511.00 0.869920
521.00 0.861760
481.00 0.845540
506.00 0.872020
546.00 0.865380
476.00 0.838200
531.00 0.860500
556.00 0.868880
526.00 0.859220
466.00 0.782880
516.00 0.866700
461.00 0.788240
