# Wavenumber Transmittence
3046.00 0.489560
3111.00 0.757980
3026.00 0.554680
3056.00 0.627860
3081.00 0.606960
3021.00 0.618980
3061.00 0.624440
3106.00 0.724060
3076.00 0.601020
3101.00 0.708440
3116.00 0.780180
3036.00 0.460880
3016.00 0.668520
3041.00 0.460360
3071.00 0.601700
3086.00 0.619060
3051.00 0.574200
3091.00 0.650380
3096.00 0.694640
3031.00 0.491300
3066.00 0.613380
