# Wavenumber Transmittence
1816.00 0.821880
1786.00 0.813120
1861.00 0.804300
1841.00 0.821140
1856.00 0.809720
1836.00 0.825160
1791.00 0.809540
1801.00 0.807560
1776.00 0.820540
1811.00 0.815480
1806.00 0.811380
1781.00 0.816860
1846.00 0.816020
1766.00 0.826480
1851.00 0.815420
1796.00 0.807000
1826.00 0.828800
1821.00 0.827380
1771.00 0.824000
1831.00 0.827600
