# Wavenumber,Transmittence
3686.00,0.871200
3731.00,0.872240
3776.00,0.873900
3671.00,0.872420
3766.00,0.872700
3696.00,0.872020
3706.00,0.872680
3676.00,0.871720
3741.00,0.872040
3711.00,0.872680
3756.00,0.871720
3761.00,0.872080
3751.00,0.871840
3701.00,0.872420
3726.00,0.872360
3736.00,0.872160
3746.00,0.871960
3681.00,0.871220
3721.00,0.872440
3691.00,0.871360
3716.00,0.872560
3781.00,0.874350
3771.00,0.873280
