# Wavenumber	Transmittence
766.00	0.839160
761.00	0.831380
721.00	0.504080
771.00	0.840960
736.00	0.495900
781.00	0.839680
741.00	0.525400
726.00	0.297800
806.00	0.841500
796.00	0.839020
826.00	0.835960
731.00	0.215180
811.00	0.841200
716.00	0.544160
801.00	0.839520
786.00	0.844800
756.00	0.805600
816.00	0.836420
746.00	0.616260
821.00	0.838200
776.00	0.841260
751.00	0.720140
791.00	0.841320
