# Wavenumber,Transmittence
2041.00,0.839060
2086.00,0.841680
2066.00,0.840680
1996.00,0.838120
2026.00,0.839400
2016.00,0.839280
2076.00,0.841180
1981.00,0.838560
2051.00,0.839740
2046.00,0.839360
2081.00,0.841420
1991.00,0.837800
2021.00,0.839400
2061.00,0.840420
2031.00,0.839380
2001.00,0.838620
2056.00,0.840080
2006.00,0.838880
2036.00,0.839220
2011.00,0.839080
1986.00,0.837880
1976.00,0.838940
2071.00,0.840920
