# Wavenumber	Transmittence
1711.00	0.829960
1676.00	0.828460
1721.00	0.826340
1746.00	0.831500
1731.00	0.824200
1701.00	0.832100
1756.00	0.831040
1736.00	0.824060
1726.00	0.825040
1681.00	0.829120
1751.00	0.831840
1666.00	0.827600
1691.00	0.831180
1671.00	0.827600
1646.00	0.827800
1741.00	0.826020
1686.00	0.829800
1716.00	0.828200
1761.00	0.828860
1696.00	0.832460
1656.00	0.827700
1661.00	0.827700
1651.00	0.827720
1706.00	0.831480
1641.00	0.827800
