# Wavenumber	Transmittence
756.00	0.805600
766.00	0.839160
781.00	0.839680
751.00	0.720140
711.00	0.600100
721.00	0.504080
726.00	0.297800
776.00	0.841260
796.00	0.839020
716.00	0.544160
791.00	0.841320
746.00	0.616260
731.00	0.215180
736.00	0.495900
806.00	0.841500
741.00	0.525400
801.00	0.839520
786.00	0.844800
771.00	0.840960
761.00	0.831380
