# Wavenumber	Transmittence
2936.00	0.616840
2976.00	0.764380
3006.00	0.697520
3016.00	0.668520
2981.00	0.757460
3011.00	0.685480
2946.00	0.657160
2961.00	0.747520
3026.00	0.554680
2991.00	0.739980
3001.00	0.712100
3031.00	0.491300
2956.00	0.730640
2966.00	0.761280
2971.00	0.767580
2996.00	0.727660
2951.00	0.704520
2941.00	0.625220
3021.00	0.618980
2931.00	0.618560
2986.00	0.749740
