# Wavenumber	Transmittence
751.00	0.720140
711.00	0.600100
716.00	0.544160
756.00	0.805600
731.00	0.215180
691.00	0.663680
726.00	0.297800
746.00	0.616260
631.00	0.870740
651.00	0.861960
706.00	0.634040
681.00	0.716000
646.00	0.864660
666.00	0.845980
656.00	0.858800
741.00	0.525400
701.00	0.675060
636.00	0.869540
676.00	0.752280
641.00	0.867260
721.00	0.504080
696.00	0.404040
736.00	0.495900
661.00	0.854620
686.00	0.702340
671.00	0.797500
