# Wavenumber Transmittence
2966.00 0.761280
3061.00 0.624440
3011.00 0.685480
2971.00 0.767580
2986.00 0.749740
2961.00 0.747520
3071.00 0.601700
3076.00 0.601020
3001.00 0.712100
3021.00 0.618980
3051.00 0.574200
2981.00 0.757460
3066.00 0.613380
3016.00 0.668520
3026.00 0.554680
3031.00 0.491300
2976.00 0.764380
3056.00 0.627860
3041.00 0.460360
3036.00 0.460880
3046.00 0.489560
2991.00 0.739980
2996.00 0.727660
2956.00 0.730640
3006.00 0.697520
