# Wavenumber	Transmittence
2301.00	0.856740
2341.00	0.863040
2386.00	0.857120
2346.00	0.862460
2331.00	0.863720
2291.00	0.855440
2381.00	0.858320
2311.00	0.858520
2391.00	0.856100
2376.00	0.861100
2336.00	0.863880
2306.00	0.857420
2366.00	0.868260
2316.00	0.859780
2371.00	0.865300
2351.00	0.864360
2396.00	0.855520
2296.00	0.855520
2321.00	0.861100
2326.00	0.862600
2356.00	0.868480
2401.00	0.855720
2361.00	0.869960
