# Wavenumber,Transmittence
2156.00,0.845580
2201.00,0.850120
2146.00,0.845120
2226.00,0.850760
2161.00,0.845820
2186.00,0.848800
2211.00,0.850380
2151.00,0.845320
2206.00,0.850260
2221.00,0.850640
2236.00,0.851080
2191.00,0.849200
2171.00,0.846720
2251.00,0.851820
2216.00,0.850520
2241.00,0.851320
2181.00,0.848120
2166.00,0.846120
2196.00,0.849700
2231.00,0.850880
2246.00,0.851580
2176.00,0.847380
