# Wavenumber Transmittence
2426.00 0.856280
2471.00 0.857580
2431.00 0.856580
2481.00 0.857620
2491.00 0.858120
2506.00 0.859080
2476.00 0.857500
2461.00 0.857800
2421.00 0.856200
2456.00 0.857760
2466.00 0.857720
2521.00 0.859540
2486.00 0.857880
2451.00 0.857520
2501.00 0.858820
2516.00 0.859420
2436.00 0.856880
2441.00 0.857120
2446.00 0.857320
2511.00 0.859240
2496.00 0.858460
