# Wavenumber,Transmittence
1191.00,0.840040
1211.00,0.834900
1296.00,0.836400
1291.00,0.837660
1271.00,0.839580
1276.00,0.839120
1206.00,0.837300
1226.00,0.835920
1221.00,0.833100
1281.00,0.838640
1201.00,0.839380
1256.00,0.837260
1251.00,0.836920
1196.00,0.840140
1181.00,0.834640
1176.00,0.835140
1301.00,0.834980
1231.00,0.841020
1186.00,0.837700
1286.00,0.838200
1216.00,0.833240
1266.00,0.839540
1236.00,0.841860
1246.00,0.838500
1261.00,0.838880
1171.00,0.839400
1241.00,0.840460
