# Wavenumber Transmittence
3206.00 0.866740
3181.00 0.859980
3166.00 0.862160
3196.00 0.863800
3161.00 0.861680
3176.00 0.860460
3156.00 0.860760
3171.00 0.861680
3256.00 0.864520
3186.00 0.860840
3211.00 0.867260
3246.00 0.864760
3221.00 0.866340
3226.00 0.865800
3151.00 0.859680
3231.00 0.865220
3241.00 0.864880
3236.00 0.865020
3251.00 0.864640
3201.00 0.865420
3191.00 0.862280
3216.00 0.866900
