# Wavenumber,Transmittence
2406.00,0.855980
2361.00,0.869960
2401.00,0.855720
2346.00,0.862460
2431.00,0.856580
2386.00,0.857120
2356.00,0.868480
2441.00,0.857120
2381.00,0.858320
2391.00,0.856100
2411.00,0.856180
2366.00,0.868260
2396.00,0.855520
2351.00,0.864360
2421.00,0.856200
2416.00,0.856200
2426.00,0.856280
2376.00,0.861100
2436.00,0.856880
2371.00,0.865300
2341.00,0.863040
