# Wavenumber,Transmittence
3471.00,0.876800
3556.00,0.877380
3531.00,0.877600
3536.00,0.877600
3506.00,0.877040
3516.00,0.877520
3551.00,0.877540
3566.00,0.877060
3511.00,0.877500
3481.00,0.876980
3496.00,0.877300
3491.00,0.877180
3476.00,0.876900
3521.00,0.877600
3526.00,0.877600
3541.00,0.877600
3486.00,0.877100
3546.00,0.877600
3501.00,0.877380
3561.00,0.877220
