# Wavenumber,Transmittence
2591.00,0.857020
2621.00,0.860720
2581.00,0.857000
2546.00,0.859260
2526.00,0.859660
2516.00,0.859420
2606.00,0.858860
2596.00,0.857280
2576.00,0.857120
2541.00,0.859520
2611.00,0.859600
2536.00,0.859780
2601.00,0.857740
2551.00,0.858920
2616.00,0.860100
2566.00,0.857720
2561.00,0.858140
2531.00,0.859780
2571.00,0.857340
2511.00,0.859240
2586.00,0.856920
2556.00,0.858520
2521.00,0.859540
