# Wavenumber	Transmittence
761.00	0.831380
721.00	0.504080
736.00	0.495900
741.00	0.525400
756.00	0.805600
766.00	0.839160
726.00	0.297800
731.00	0.215180
691.00	0.663680
706.00	0.634040
711.00	0.600100
786.00	0.844800
791.00	0.841320
771.00	0.840960
746.00	0.616260
751.00	0.720140
716.00	0.544160
781.00	0.839680
701.00	0.675060
776.00	0.841260
696.00	0.404040
