# Wavenumber Transmittence
3611.00 0.875640
3581.00 0.876580
3661.00 0.873620
3591.00 0.876240
3616.00 0.875520
3601.00 0.875940
3676.00 0.871720
3576.00 0.876760
3691.00 0.871360
3631.00 0.875080
3596.00 0.876080
3646.00 0.874380
3636.00 0.874880
3586.00 0.876420
3696.00 0.872020
3626.00 0.875220
3606.00 0.875820
3671.00 0.872420
3656.00 0.873880
3621.00 0.875380
3651.00 0.874120
3666.00 0.873180
3571.00 0.876880
3641.00 0.874620
3681.00 0.871220
3686.00 0.871200
