# Wavenumber	Transmittence
776.00	0.841260
826.00	0.835960
761.00	0.831380
821.00	0.838200
806.00	0.841500
831.00	0.832100
756.00	0.805600
836.00	0.835140
746.00	0.616260
741.00	0.525400
781.00	0.839680
801.00	0.839520
771.00	0.840960
796.00	0.839020
766.00	0.839160
811.00	0.841200
791.00	0.841320
816.00	0.836420
786.00	0.844800
751.00	0.720140
