# Wavenumber,Transmittence
2936.00,0.616840
2986.00,0.749740
2976.00,0.764380
2966.00,0.761280
2921.00,0.667880
2916.00,0.736060
2971.00,0.767580
2946.00,0.657160
2941.00,0.625220
2956.00,0.730640
2991.00,0.739980
2981.00,0.757460
2961.00,0.747520
2931.00,0.618560
3006.00,0.697520
3011.00,0.685480
2911.00,0.766940
2996.00,0.727660
3016.00,0.668520
2906.00,0.772900
2926.00,0.631860
3001.00,0.712100
2951.00,0.704520
