# Wavenumber,Transmittence
2981.00,0.757460
2996.00,0.727660
3071.00,0.601700
3041.00,0.460360
2971.00,0.767580
3031.00,0.491300
3046.00,0.489560
3051.00,0.574200
3026.00,0.554680
3021.00,0.618980
2991.00,0.739980
2976.00,0.764380
3011.00,0.685480
3036.00,0.460880
2966.00,0.761280
2986.00,0.749740
3061.00,0.624440
3016.00,0.668520
3001.00,0.712100
3066.00,0.613380
3006.00,0.697520
3056.00,0.627860
