# Wavenumber Transmittence
2016.00 0.839280
2026.00 0.839400
1971.00 0.834500
2046.00 0.839360
2021.00 0.839400
2081.00 0.841420
1991.00 0.837800
2066.00 0.840680
1976.00 0.838940
1966.00 0.828340
1986.00 0.837880
2056.00 0.840080
2011.00 0.839080
2031.00 0.839380
2061.00 0.840420
2001.00 0.838620
1981.00 0.838560
2006.00 0.838880
1996.00 0.838120
2076.00 0.841180
2036.00 0.839220
2071.00 0.840920
2041.00 0.839060
2051.00 0.839740
