# Wavenumber,Transmittence
2391.00,0.856100
2411.00,0.856180
2456.00,0.857760
2406.00,0.855980
2376.00,0.861100
2381.00,0.858320
2446.00,0.857320
2371.00,0.865300
2451.00,0.857520
2431.00,0.856580
2421.00,0.856200
2471.00,0.857580
2416.00,0.856200
2361.00,0.869960
2396.00,0.855520
2401.00,0.855720
2356.00,0.868480
2441.00,0.857120
2386.00,0.857120
2426.00,0.856280
2461.00,0.857800
2366.00,0.868260
2466.00,0.857720
2436.00,0.856880
2476.00,0.857500
