# Wavenumber,Transmittence
2046.00,0.839360
2026.00,0.839400
2051.00,0.839740
1976.00,0.838940
1971.00,0.834500
2016.00,0.839280
2011.00,0.839080
2001.00,0.838620
2036.00,0.839220
2031.00,0.839380
1981.00,0.838560
1986.00,0.837880
2041.00,0.839060
1991.00,0.837800
2056.00,0.840080
2021.00,0.839400
1966.00,0.828340
1996.00,0.838120
2061.00,0.840420
2006.00,0.838880
1961.00,0.823860
