# Wavenumber,Transmittence
1196.00,0.840140
1176.00,0.835140
1226.00,0.835920
1211.00,0.834900
1256.00,0.837260
1181.00,0.834640
1246.00,0.838500
1186.00,0.837700
1206.00,0.837300
1201.00,0.839380
1191.00,0.840040
1261.00,0.838880
1216.00,0.833240
1251.00,0.836920
1231.00,0.841020
1241.00,0.840460
1166.00,0.842760
1271.00,0.839580
1171.00,0.839400
1221.00,0.833100
1266.00,0.839540
1236.00,0.841860
