# Wavenumber	Transmittence
2006.00	0.838880
2071.00	0.840920
2056.00	0.840080
2096.00	0.842280
2101.00	0.842520
2121.00	0.843720
2066.00	0.840680
2031.00	0.839380
2046.00	0.839360
2021.00	0.839400
2001.00	0.838620
2081.00	0.841420
2036.00	0.839220
2016.00	0.839280
2061.00	0.840420
2106.00	0.842860
2076.00	0.841180
2111.00	0.843120
2051.00	0.839740
2026.00	0.839400
2091.00	0.841940
2041.00	0.839060
2011.00	0.839080
2086.00	0.841680
2116.00	0.843460
