# Wavenumber,Transmittence
1731.00,0.824200
1766.00,0.826480
1706.00,0.831480
1736.00,0.824060
1696.00,0.832460
1681.00,0.829120
1751.00,0.831840
1711.00,0.829960
1756.00,0.831040
1721.00,0.826340
1741.00,0.826020
1761.00,0.828860
1716.00,0.828200
1686.00,0.829800
1776.00,0.820540
1781.00,0.816860
1746.00,0.831500
1701.00,0.832100
1691.00,0.831180
1771.00,0.824000
1726.00,0.825040
