# Wavenumber Transmittence
1751.00 0.831840
1806.00 0.811380
1786.00 0.813120
1816.00 0.821880
1756.00 0.831040
1746.00 0.831500
1796.00 0.807000
1776.00 0.820540
1761.00 0.828860
1811.00 0.815480
1791.00 0.809540
1721.00 0.826340
1781.00 0.816860
1771.00 0.824000
1726.00 0.825040
1731.00 0.824200
1766.00 0.826480
1801.00 0.807560
1741.00 0.826020
1736.00 0.824060
