# Wavenumber	Transmittence
716.00	0.544160
746.00	0.616260
736.00	0.495900
731.00	0.215180
781.00	0.839680
791.00	0.841320
771.00	0.840960
726.00	0.297800
706.00	0.634040
696.00	0.404040
751.00	0.720140
721.00	0.504080
801.00	0.839520
761.00	0.831380
741.00	0.525400
776.00	0.841260
756.00	0.805600
786.00	0.844800
796.00	0.839020
806.00	0.841500
701.00	0.675060
711.00	0.600100
766.00	0.839160
