# Wavenumber	Transmittence
2446.00	0.857320
2541.00	0.859520
2471.00	0.857580
2486.00	0.857880
2431.00	0.856580
2496.00	0.858460
2441.00	0.857120
2521.00	0.859540
2456.00	0.857760
2516.00	0.859420
2476.00	0.857500
2426.00	0.856280
2461.00	0.857800
2491.00	0.858120
2511.00	0.859240
2531.00	0.859780
2481.00	0.857620
2436.00	0.856880
2501.00	0.858820
2506.00	0.859080
2536.00	0.859780
2451.00	0.857520
2526.00	0.859660
2466.00	0.857720
