# Wavenumber Transmittence
3691.00 0.871360
3671.00 0.872420
3706.00 0.872680
3716.00 0.872560
3641.00 0.874620
3646.00 0.874380
3711.00 0.872680
3686.00 0.871200
3651.00 0.874120
3661.00 0.873620
3666.00 0.873180
3701.00 0.872420
3636.00 0.874880
3621.00 0.875380
3656.00 0.873880
3676.00 0.871720
3631.00 0.875080
3626.00 0.875220
3696.00 0.872020
3681.00 0.871220
