# Wavenumber	Transmittence
1971.00	0.834500
2011.00	0.839080
2031.00	0.839380
2016.00	0.839280
2051.00	0.839740
2071.00	0.840920
2066.00	0.840680
2081.00	0.841420
1996.00	0.838120
1981.00	0.838560
2056.00	0.840080
2076.00	0.841180
2046.00	0.839360
2021.00	0.839400
2061.00	0.840420
2001.00	0.838620
2036.00	0.839220
2026.00	0.839400
1976.00	0.838940
2041.00	0.839060
2006.00	0.838880
1986.00	0.837880
1991.00	0.837800
