# Wavenumber,Transmittence
1821.00,0.827380
1921.00,0.825440
1906.00,0.831060
1841.00,0.821140
1891.00,0.831520
1816.00,0.821880
1886.00,0.829440
1826.00,0.828800
1856.00,0.809720
1936.00,0.811720
1881.00,0.823780
1846.00,0.816020
1926.00,0.819500
1896.00,0.832440
1916.00,0.828160
1941.00,0.807640
1911.00,0.829860
1861.00,0.804300
1866.00,0.810300
1931.00,0.813960
1851.00,0.815420
1871.00,0.815620
1876.00,0.818080
1836.00,0.825160
1901.00,0.831680
1831.00,0.827600
