# Wavenumber	Transmittence
1686.00	0.829800
1661.00	0.827700
1621.00	0.749780
1671.00	0.827600
1626.00	0.774280
1656.00	0.827700
1641.00	0.827800
1631.00	0.794860
1706.00	0.831480
1696.00	0.832460
1611.00	0.719680
1676.00	0.828460
1646.00	0.827800
1616.00	0.728360
1691.00	0.831180
1666.00	0.827600
1651.00	0.827720
1701.00	0.832100
1636.00	0.822500
1681.00	0.829120
