# Wavenumber,Transmittence
2936.00,0.616840
2926.00,0.631860
2921.00,0.667880
2986.00,0.749740
2991.00,0.739980
2976.00,0.764380
2996.00,0.727660
2966.00,0.761280
2961.00,0.747520
2981.00,0.757460
3006.00,0.697520
3021.00,0.618980
2941.00,0.625220
3001.00,0.712100
3016.00,0.668520
2931.00,0.618560
2946.00,0.657160
2956.00,0.730640
3011.00,0.685480
2971.00,0.767580
2951.00,0.704520
