# Wavenumber,Transmittence
2051.00,0.839740
2041.00,0.839060
1951.00,0.809120
2031.00,0.839380
1966.00,0.828340
1976.00,0.838940
1981.00,0.838560
1971.00,0.834500
2036.00,0.839220
1996.00,0.838120
2056.00,0.840080
2016.00,0.839280
2046.00,0.839360
1956.00,0.817040
2021.00,0.839400
2011.00,0.839080
1986.00,0.837880
1961.00,0.823860
2006.00,0.838880
2001.00,0.838620
1991.00,0.837800
2026.00,0.839400
