# Wavenumber,Transmittence
1881.00,0.823780
1836.00,0.825160
1841.00,0.821140
1846.00,0.816020
1911.00,0.829860
1906.00,0.831060
1806.00,0.811380
1816.00,0.821880
1891.00,0.831520
1871.00,0.815620
1826.00,0.828800
1876.00,0.818080
1896.00,0.832440
1866.00,0.810300
1861.00,0.804300
1821.00,0.827380
1856.00,0.809720
1811.00,0.815480
1886.00,0.829440
1831.00,0.827600
1901.00,0.831680
1851.00,0.815420
1916.00,0.828160
