# Wavenumber Transmittence
1646.00 0.827800
1701.00 0.832100
1711.00 0.829960
1721.00 0.826340
1691.00 0.831180
1671.00 0.827600
1686.00 0.829800
1661.00 0.827700
1636.00 0.822500
1651.00 0.827720
1681.00 0.829120
1706.00 0.831480
1726.00 0.825040
1676.00 0.828460
1696.00 0.832460
1666.00 0.827600
1736.00 0.824060
1656.00 0.827700
1716.00 0.828200
1731.00 0.824200
1641.00 0.827800
