# Wavenumber Transmittence
681.00 0.716000
781.00 0.839680
711.00 0.600100
756.00 0.805600
771.00 0.840960
726.00 0.297800
776.00 0.841260
731.00 0.215180
741.00 0.525400
721.00 0.504080
766.00 0.839160
716.00 0.544160
761.00 0.831380
706.00 0.634040
746.00 0.616260
751.00 0.720140
736.00 0.495900
696.00 0.404040
786.00 0.844800
686.00 0.702340
691.00 0.663680
701.00 0.675060
