# Wavenumber,Transmittence
496.00,0.871440
536.00,0.862060
481.00,0.845540
486.00,0.856180
491.00,0.867160
466.00,0.782880
501.00,0.872600
461.00,0.788240
546.00,0.865380
526.00,0.859220
551.00,0.867080
506.00,0.872020
456.00,0.795540
516.00,0.866700
521.00,0.861760
476.00,0.838200
531.00,0.860500
511.00,0.869920
471.00,0.819700
541.00,0.863700
