# Wavenumber Transmittence
2541.00 0.859520
2561.00 0.858140
2491.00 0.858120
2476.00 0.857500
2531.00 0.859780
2496.00 0.858460
2526.00 0.859660
2536.00 0.859780
2521.00 0.859540
2566.00 0.857720
2546.00 0.859260
2481.00 0.857620
2471.00 0.857580
2506.00 0.859080
2556.00 0.858520
2551.00 0.858920
2511.00 0.859240
2516.00 0.859420
2501.00 0.858820
2486.00 0.857880
