# Wavenumber,Transmittence
2691.00,0.862600
2761.00,0.858680
2721.00,0.856220
2711.00,0.859520
2716.00,0.858120
2686.00,0.862920
2741.00,0.849640
2726.00,0.854020
2781.00,0.863780
2706.00,0.860520
2766.00,0.861720
2771.00,0.863740
2756.00,0.854760
2776.00,0.864300
2746.00,0.849680
2701.00,0.861220
2731.00,0.852120
2736.00,0.850520
2696.00,0.861960
2751.00,0.851480
