# Wavenumber Transmittence
3651.00 0.874120
3626.00 0.875220
3656.00 0.873880
3676.00 0.871720
3691.00 0.871360
3621.00 0.875380
3611.00 0.875640
3686.00 0.871200
3681.00 0.871220
3661.00 0.873620
3601.00 0.875940
3696.00 0.872020
3616.00 0.875520
3636.00 0.874880
3666.00 0.873180
3641.00 0.874620
3671.00 0.872420
3646.00 0.874380
3631.00 0.875080
3606.00 0.875820
