# Wavenumber	Transmittence
2411.00	0.856180
2511.00	0.859240
2506.00	0.859080
2486.00	0.857880
2476.00	0.857500
2421.00	0.856200
2466.00	0.857720
2416.00	0.856200
2426.00	0.856280
2436.00	0.856880
2481.00	0.857620
2496.00	0.858460
2501.00	0.858820
2456.00	0.857760
2406.00	0.855980
2471.00	0.857580
2461.00	0.857800
2441.00	0.857120
2451.00	0.857520
2446.00	0.857320
2431.00	0.856580
2491.00	0.858120
2516.00	0.859420
