# Wavenumber Transmittence
696.00 0.404040
731.00 0.215180
676.00 0.752280
646.00 0.864660
661.00 0.854620
686.00 0.702340
736.00 0.495900
651.00 0.861960
716.00 0.544160
671.00 0.797500
741.00 0.525400
761.00 0.831380
756.00 0.805600
701.00 0.675060
721.00 0.504080
711.00 0.600100
656.00 0.858800
706.00 0.634040
691.00 0.663680
746.00 0.616260
666.00 0.845980
766.00 0.839160
726.00 0.297800
681.00 0.716000
751.00 0.720140
