# Wavenumber Transmittence
2386.00 0.857120
2451.00 0.857520
2461.00 0.857800
2491.00 0.858120
2401.00 0.855720
2456.00 0.857760
2436.00 0.856880
2391.00 0.856100
2411.00 0.856180
2441.00 0.857120
2421.00 0.856200
2426.00 0.856280
2406.00 0.855980
2446.00 0.857320
2471.00 0.857580
2486.00 0.857880
2431.00 0.856580
2476.00 0.857500
2481.00 0.857620
2416.00 0.856200
2466.00 0.857720
2396.00 0.855520
