# Wavenumber Transmittence
3021.00 0.618980
3006.00 0.697520
2996.00 0.727660
3031.00 0.491300
2991.00 0.739980
3041.00 0.460360
3001.00 0.712100
2966.00 0.761280
3066.00 0.613380
2961.00 0.747520
3011.00 0.685480
2971.00 0.767580
3056.00 0.627860
3036.00 0.460880
3051.00 0.574200
3046.00 0.489560
2976.00 0.764380
3026.00 0.554680
2981.00 0.757460
2986.00 0.749740
3016.00 0.668520
3061.00 0.624440
