# Wavenumber Transmittence
3176.00 0.860460
3201.00 0.865420
3161.00 0.861680
3231.00 0.865220
3206.00 0.866740
3171.00 0.861680
3251.00 0.864640
3186.00 0.860840
3191.00 0.862280
3226.00 0.865800
3181.00 0.859980
3241.00 0.864880
3196.00 0.863800
3246.00 0.864760
3236.00 0.865020
3216.00 0.866900
3221.00 0.866340
3166.00 0.862160
3256.00 0.864520
3211.00 0.867260
