# Wavenumber Transmittence
1741.00 0.826020
1726.00 0.825040
1696.00 0.832460
1691.00 0.831180
1706.00 0.831480
1746.00 0.831500
1716.00 0.828200
1721.00 0.826340
1711.00 0.829960
1661.00 0.827700
1701.00 0.832100
1731.00 0.824200
1686.00 0.829800
1671.00 0.827600
1651.00 0.827720
1656.00 0.827700
1666.00 0.827600
1681.00 0.829120
1736.00 0.824060
1676.00 0.828460
