# Wavenumber	Transmittence
1226.00	0.835920
1281.00	0.838640
1286.00	0.838200
1246.00	0.838500
1311.00	0.832580
1221.00	0.833100
1316.00	0.831900
1301.00	0.834980
1241.00	0.840460
1216.00	0.833240
1306.00	0.833740
1266.00	0.839540
1201.00	0.839380
1261.00	0.838880
1256.00	0.837260
1236.00	0.841860
1296.00	0.836400
1276.00	0.839120
1211.00	0.834900
1271.00	0.839580
1231.00	0.841020
1251.00	0.836920
1206.00	0.837300
1291.00	0.837660
