# Wavenumber,Transmittence
2746.00,0.849680
2796.00,0.862420
2721.00,0.856220
2706.00,0.860520
2806.00,0.859720
2691.00,0.862600
2761.00,0.858680
2751.00,0.851480
2681.00,0.863120
2696.00,0.861960
2781.00,0.863780
2716.00,0.858120
2791.00,0.863020
2756.00,0.854760
2741.00,0.849640
2711.00,0.859520
2701.00,0.861220
2786.00,0.863280
2776.00,0.864300
2766.00,0.861720
2811.00,0.857840
2771.00,0.863740
2686.00,0.862920
2801.00,0.861400
2731.00,0.852120
2726.00,0.854020
2736.00,0.850520
