# Wavenumber Transmittence
3586.00 0.876420
3616.00 0.875520
3526.00 0.877600
3566.00 0.877060
3596.00 0.876080
3601.00 0.875940
3571.00 0.876880
3591.00 0.876240
3561.00 0.877220
3546.00 0.877600
3581.00 0.876580
3576.00 0.876760
3536.00 0.877600
3611.00 0.875640
3551.00 0.877540
3541.00 0.877600
3606.00 0.875820
3521.00 0.877600
3556.00 0.877380
3531.00 0.877600
