# Wavenumber Transmittence
2166.00 0.846120
2121.00 0.843720
2106.00 0.842860
2131.00 0.844320
2151.00 0.845320
2091.00 0.841940
2136.00 0.844580
2171.00 0.846720
2141.00 0.844840
2071.00 0.840920
2096.00 0.842280
2076.00 0.841180
2101.00 0.842520
2111.00 0.843120
2116.00 0.843460
2146.00 0.845120
2161.00 0.845820
2081.00 0.841420
2086.00 0.841680
2156.00 0.845580
2126.00 0.844020
