# Wavenumber	Transmittence
2571.00	0.857340
2576.00	0.857120
2551.00	0.858920
2511.00	0.859240
2526.00	0.859660
2586.00	0.856920
2536.00	0.859780
2496.00	0.858460
2521.00	0.859540
2556.00	0.858520
2491.00	0.858120
2546.00	0.859260
2501.00	0.858820
2516.00	0.859420
2581.00	0.857000
2561.00	0.858140
2541.00	0.859520
2531.00	0.859780
2506.00	0.859080
2566.00	0.857720
