# Wavenumber Transmittence
1111.00 0.832020
1201.00 0.839380
1186.00 0.837700
1156.00 0.844580
1146.00 0.847400
1176.00 0.835140
1136.00 0.849900
1121.00 0.846540
1161.00 0.843880
1126.00 0.850120
1116.00 0.838400
1101.00 0.826000
1196.00 0.840140
1171.00 0.839400
1131.00 0.850720
1206.00 0.837300
1106.00 0.831880
1096.00 0.814540
1141.00 0.848780
1166.00 0.842760
1091.00 0.801720
1151.00 0.845900
1191.00 0.840040
1181.00 0.834640
