# Wavenumber,Transmittence
501.00,0.872600
541.00,0.863700
551.00,0.867080
526.00,0.859220
536.00,0.862060
466.00,0.782880
546.00,0.865380
511.00,0.869920
461.00,0.788240
496.00,0.871440
486.00,0.856180
471.00,0.819700
481.00,0.845540
456.00,0.795540
516.00,0.866700
506.00,0.872020
476.00,0.838200
531.00,0.860500
491.00,0.867160
521.00,0.861760
