# Wavenumber,Transmittence
2011.00,0.839080
2006.00,0.838880
2026.00,0.839400
2001.00,0.838620
2016.00,0.839280
1991.00,0.837800
1971.00,0.834500
1986.00,0.837880
1996.00,0.838120
1951.00,0.809120
2036.00,0.839220
1976.00,0.838940
2051.00,0.839740
2021.00,0.839400
1961.00,0.823860
1956.00,0.817040
2041.00,0.839060
1966.00,0.828340
2031.00,0.839380
2046.00,0.839360
2056.00,0.840080
1981.00,0.838560
