# Wavenumber Transmittence
671.00 0.797500
651.00 0.861960
661.00 0.854620
706.00 0.634040
666.00 0.845980
681.00 0.716000
701.00 0.675060
741.00 0.525400
686.00 0.702340
746.00 0.616260
751.00 0.720140
716.00 0.544160
711.00 0.600100
736.00 0.495900
676.00 0.752280
696.00 0.404040
766.00 0.839160
691.00 0.663680
756.00 0.805600
656.00 0.858800
726.00 0.297800
761.00 0.831380
731.00 0.215180
721.00 0.504080
