# Wavenumber,Transmittence
3426.00,0.874680
3496.00,0.877300
3486.00,0.877100
3476.00,0.876900
3441.00,0.875420
3446.00,0.875680
3416.00,0.874160
3431.00,0.874920
3411.00,0.873740
3506.00,0.877040
3456.00,0.876180
3481.00,0.876980
3466.00,0.876680
3511.00,0.877500
3436.00,0.875180
3471.00,0.876800
3451.00,0.875920
3491.00,0.877180
3461.00,0.876420
3501.00,0.877380
3421.00,0.874420
